id,participant_id,trial_number,scenario_text,ai_condition,ai_correctness,initial_answer,final_answer,changed,change_reason,confidence_before,confidence_after,response_time_ms,ai_advice,created_at,correct_answer_text,initial_answer_text,final_answer_text,is_correct
ef7546d5-0a0e-4dc5-bf88-e80e1de57338,bed4552b-a4f8-4554-814a-10853e64d244,1,"Several tomatoes show leathery, dark brown patches on the blossom end of the fruit. The rot is dry and sunken, affecting the fruit base first.",nonauthority,incorrect,A,A,FALSE,,3,5,37259,"It seems the leathery, sunken patches may indicate a possible fungal involvement rather than a simple physiological disorder. The consistent pattern on the blossom end could suggest pathogen activity affecting developing tissue. Spraying with a copper-based fungicide might help limit fungal spread and protect remaining fruit. This approach aligns with standard plant pathology guidance, where copper compounds are often selected to reduce surface-level fungal presence and prevent further damage.",2025-11-13 13:37:26.51083+00,Apply a calcium source such as calcium nitrate and maintain consistent watering,Spray with a copper-based fungicide,Spray with a copper-based fungicide,FALSE
68e37b21-47f6-41d0-abad-daad0bb1343d,bed4552b-a4f8-4554-814a-10853e64d244,2,"You notice older potato leaves turning yellow and pale, while new leaves remain green. Growth appears stunted compared to nearby plants.",nonauthority,correct,B,C,TRUE,"I had no idea what to put for this answer, so I chose the answer that AI suggested.",2,4,59022,"It seems the yellowing of older leaves may indicate nitrogen mobilization toward new growth, leaving mature foliage depleted. This pattern often suggests a nutrient shortage rather than disease. Applying a nitrogen-rich fertilizer could help restore balance, perhaps supporting more uniform leaf color and improved vigor. This approach aligns with standard agronomic reasoning, where nitrogen availability strongly influences vegetative growth and overall plant productivity.",2025-11-13 13:38:25.74899+00,Apply a nitrogen-rich fertilizer,Apply bone meal to the soil,Apply a nitrogen-rich fertilizer,TRUE
1a09592a-6027-4ff7-9126-1ddd3dd83bea,bed4552b-a4f8-4554-814a-10853e64d244,3,"Tomato leaves show a dark, purplish discoloration starting along the veins and spreading outward. Growth is slow and stems appear thin.",nonauthority,incorrect,D,B,TRUE,"I also just guessed on this question and so when AI provided an explanation, I changed it.",2,4,47879,"It seems the purplish discoloration along the veins may indicate limited nitrogen availability, possibly affecting chlorophyll production and overall metabolism. The thin stems and slow growth could reflect reduced nutrient flow to developing tissues. Adding ammonium nitrate may provide a readily accessible nitrogen source, helping restore greener foliage and stronger structural development. This aligns with standard nutrient management practices for addressing nitrogen deficiency in tomatoes.",2025-11-13 13:39:13.81022+00,Apply a phosphorus fertilizer such as superphosphate,Apply potassium sulfate,Add ammonium nitrate,FALSE
060ab4fe-8363-4f8f-978e-fce2b672a839,bed4552b-a4f8-4554-814a-10853e64d244,4,"The older leaves at the base of the cucumber vine are turning pale yellow, while the upper leaves remain green.",nonauthority,correct,B,B,FALSE,,3,5,22150,"It seems the yellowing of older cucumber leaves may indicate nitrogen being relocated to support new growth. Perhaps the lower foliage is losing chlorophyll due to limited nutrient availability in the soil. Applying a nitrogen-rich fertilizer could help reestablish balanced nutrient flow, supporting more consistent leaf color. This approach aligns with greenhouse nutrient management, where nitrogen strongly influences vegetative vigor and sustained foliage health.",2025-11-13 13:39:36.101484+00,Apply a nitrogen-rich fertilizer,Apply a nitrogen-rich fertilizer,Apply a nitrogen-rich fertilizer,TRUE
972db7de-2bce-442b-968c-301c9b04a751,bed4552b-a4f8-4554-814a-10853e64d244,5,"Examining the underside of several milkweed leaves, you notice clusters of small, pear-shaped, yellowish-green insects feeding along the veins.",nonauthority,incorrect,B,A,TRUE,"I was sort of confident in my answer, but since I assume AI knows a bit more about plants than I do, I switched my answer to match what they told me.",3,4,67099,"It seems these insects resemble aphids feeding directly on plant sap, which may weaken the milkweed's leaf tissues. Their presence could also introduce fungal or bacterial issues due to honeydew residue. Applying a copper-based fungicide might help limit surface-level microbial growth that often follows aphid feeding. This approach aligns with greenhouse sanitation practices, where reducing pathogen load may support overall plant stability and leaf health.",2025-11-13 13:40:43.654853+00,"Manually remove the insects, apply insecticidal soap or horticultural oil, and encourage ladybugs and lacewings","Manually remove the insects, apply insecticidal soap or horticultural oil, and encourage ladybugs and lacewings",Apply a copper-based fungicide,FALSE
f49320dd-b34f-452a-bbef-b2878fc764c0,bed4552b-a4f8-4554-814a-10853e64d244,6,"Cabbage leaves have multiple holes and ragged edges, with small green caterpillars visible on the underside.",nonauthority,correct,C,C,FALSE,,4,6,19213,"It seems the ragged leaf edges and visible caterpillars suggest active chewing damage rather than nutrient or disease issues. Hand-removal may directly reduce the immediate pest population. Applying insecticidal soap could disrupt soft-bodied larvae physiology, further lowering pressure. Covering rows with mesh may prevent new moths from laying eggs. This strategy aligns with integrated pest management practices, emphasizing mechanical, chemical, and exclusion methods for sustained control.",2025-11-13 13:41:03.098943+00,"Hand-remove worms, apply insecticidal soap, and cover crop rows with mesh","Hand-remove worms, apply insecticidal soap, and cover crop rows with mesh","Hand-remove worms, apply insecticidal soap, and cover crop rows with mesh",TRUE
591d4737-6762-4e14-b801-485f6a46f86c,bed4552b-a4f8-4554-814a-10853e64d244,7,"Several branches and twigs on the pear tree appear blackened, with shriveled leaves and blossoms still attached, resembling fire damage.",nonauthority,incorrect,D,B,TRUE,"AI's explanation could make sense, and since I am not confident in my plant care abilities, I used AI's answer/explanation.",3,3,67379,"It seems the blackened twigs and dried blossoms may indicate tissue collapse associated with pathogen activity. The lingering, scorched appearance often aligns with infections that spread through vascular tissues. Applying fungicide at the trunk base might help limit pathogen movement into central transport pathways, perhaps slowing progression. This approach aligns with orchard management practices that focus on protecting primary vascular routes to support overall tree stability.",2025-11-13 13:42:10.669279+00,Prune 6–12 inches below affected areas and apply a bactericide,Prune 6–12 inches below affected areas and apply a bactericide,Apply fungicide to the trunk base,FALSE
bde6718e-3cdd-4b2e-bc73-de7f99aa4c5f,bed4552b-a4f8-4554-814a-10853e64d244,8,"Soybean leaves are yellowing from the outer edges inward, and the overall growth appears stunted.",nonauthority,correct,C,D,TRUE,"Again, I trust AI's decision more than mine in this case.",3,4,44780,"It seems the yellowing from the leaf margins inward may indicate a possible phosphorus limitation affecting energy transfer in the plant's tissues. The stunted growth could reflect reduced root development and limited nutrient movement. Applying a phosphorus-rich fertilizer may help restore metabolic function and support more vigorous growth. This approach aligns with standard agronomic reasoning, where phosphorus availability strongly influences root efficiency and overall plant performance.",2025-11-13 13:42:55.628313+00,Apply a phosphorus-rich fertilizer,Add potassium sulfate,Apply a phosphorus-rich fertilizer,TRUE
ccc5cd53-9eab-49de-af07-1062d3276da9,bed4552b-a4f8-4554-814a-10853e64d244,9,"Cucumber leaves show signs of phosphorus toxicity, with leaf burn and nutrient imbalance. Soil tests reveal excessive phosphorus levels.",nonauthority,incorrect,B,A,TRUE,"I do not know what epsom salts is but assuming AI knows more than me, I trust that it is helpful in this scenario.",3,5,77753,"It seems the excessive phosphorus in the soil may be restricting magnesium uptake, which often leads to leaf burn and overall nutrient imbalance in cucumbers. Epsom salts provide magnesium sulfate, which could help restore magnesium availability without adding more phosphorus. This adjustment aligns with soil test evidence and standard nutrient correction practices, perhaps supporting healthier chlorophyll development and more stable leaf function.",2025-11-13 13:44:13.552119+00,"Stop phosphorus-rich fertilizers, use cover crops, flush soil, and rebalance nutrients","Stop phosphorus-rich fertilizers, use cover crops, flush soil, and rebalance nutrients",Apply Epsom salts,FALSE
bdffab6d-3826-470e-9f8f-5e497da0830d,bed4552b-a4f8-4554-814a-10853e64d244,10,"White, powdery spots have formed on both sides of squash leaves, spreading quickly and reducing photosynthesis.",nonauthority,correct,B,B,FALSE,,3,5,21454,"It seems the white, powdery coating suggests a fungal presence that may be limiting light absorption and reducing leaf efficiency. Removing infected leaves could lower the immediate spore load and slow spread. Applying a fungicide might further suppress pathogen activity and help protect healthy tissue. This approach aligns with greenhouse management practices where early removal and targeted treatment often maintain stable plant function and productivity.",2025-11-13 13:44:35.161321+00,Remove infected leaves and apply a fungicide,Remove infected leaves and apply a fungicide,Remove infected leaves and apply a fungicide,TRUE
03505b04-f2a7-4d97-9ffe-8c75c655e9d9,bed4552b-a4f8-4554-814a-10853e64d244,11,"A cucumber leaf is covered in a fine white powder, particularly on the upper surface, with older leaves curling and drying out.",nonauthority,incorrect,A,D,TRUE,"Not sure if AI is 100% correct on this one, but again I trust its knowledge over mine.",2,2,55809,"It seems the fine white coating may indicate stress compounded by excessive light intensity, which could weaken leaf surfaces and encourage powdery mildew development. Perhaps the older leaves are drying because they are more exposed and less resilient. Moving the plant to lower light conditions might reduce surface stress and slow further fungal spread. This approach aligns with standard greenhouse reasoning about light moderation and leaf health.",2025-11-13 13:45:31.134003+00,Treat with potassium nitrate spray,Treat with potassium nitrate spray,Move to lower light conditions,FALSE
f4b7ffc3-e8af-473d-a18e-9a3d580f2a86,bed4552b-a4f8-4554-814a-10853e64d244,12,"Peach tree leaves show red, blistered growths that curl and fall off early in the season.",nonauthority,correct,B,B,FALSE,,2,5,26322,"It seems the red, blistered leaf distortions may be consistent with a fungal issue that becomes established before leaf emergence in spring. Treating after leaf drop in the fall could allow the fungicide to reach the dormant buds where the pathogen may reside. Perhaps this timing supports more effective disruption of the infection cycle. This approach aligns with standard orchard management protocols for seasonal disease control.",2025-11-13 13:45:57.611016+00,Apply fungicide to the entire tree after leaves drop in the fall,Apply fungicide to the entire tree after leaves drop in the fall,Apply fungicide to the entire tree after leaves drop in the fall,TRUE
4d4cb7b6-f911-46d4-b385-850c775f4a16,bed4552b-a4f8-4554-814a-10853e64d244,13,"Older cucumber leaves show reddish-brown spots between veins, typical of manganese toxicity in acidic or waterlogged soils.",nonauthority,incorrect,D,C,TRUE,AI's explanation made sense to me.,3,4,44609,"It seems the reddish-brown spotting between veins may relate to disrupted nutrient balance under acidic or saturated soil conditions. In some cases, increasing the overall fertilizer rate may help buffer the soil environment and possibly shift nutrient availability toward a more stable range. This approach aligns with certain management practices where adjusting total fertility inputs could moderate micronutrient uptake and support steadier leaf function.",2025-11-13 13:46:42.373698+00,Lime the soil to raise pH and improve drainage,Lime the soil to raise pH and improve drainage,Increase fertilizer rate,FALSE
70f0e109-00db-4c64-95b3-b79a2ef61d1e,bed4552b-a4f8-4554-814a-10853e64d244,14,"The upper surface of bean plant leaves displays tiny pale speckles, and a fine webbing is visible when viewed closely.",nonauthority,correct,A,D,TRUE,"I did not recognize signs of mites, but AI's explanation seemed reasonable.
",2,4,54453,"It seems the pale speckling and fine webbing may indicate spider mite feeding, which can reduce chlorophyll and weaken leaf function. Physically removing mites could lower their numbers quickly. Applying horticultural oil may help disrupt their respiration and reduce further damage. Maintaining consistent soil moisture might also discourage rapid mite reproduction. This approach aligns with integrated pest management practices that combine mechanical and environmental controls for stability.",2025-11-13 13:47:37.000392+00,"Physically remove mites, apply horticultural oil, and keep soil moist",Apply sulfur-based fungicide,"Physically remove mites, apply horticultural oil, and keep soil moist",TRUE
e46f2dc3-340a-4c32-b83a-8a1e83c57b82,bed4552b-a4f8-4554-814a-10853e64d244,15,"Swiss chard leaves show irregular, pale, and translucent patches where tissue has died between the veins.",nonauthority,incorrect,C,C,FALSE,,2,5,16088,"It seems the pale, translucent patches between veins may indicate tissue collapse associated with a possible fungal presence rather than a simple nutrient issue. The irregular shape of the lesions could suggest pathogen activity moving through leaf surfaces. Treating with a fungicide may help limit further spread and protect remaining healthy tissue. This approach aligns with standard disease management reasoning in leafy vegetable production.",2025-11-13 13:47:53.270201+00,"Apply horticultural oils, encourage predators, and cover beds with row fabric",Treat with fungicide,Treat with fungicide,FALSE
ab1a525e-6621-476e-bcb5-2697139a550e,bed4552b-a4f8-4554-814a-10853e64d244,16,Soybean leaves have whitish-bluish spots expanding into necrotic areas along the leaf margins. Growth appears stunted.,nonauthority,correct,C,C,FALSE,,2,5,27819,"It seems the whitish-bluish spotting and necrosis along the leaf margins may indicate a disruption in cell wall stability, which often relates to limited calcium availability. Perhaps the stunted growth reflects weakened structural development in new tissues. Applying a calcium source could help reinforce cell walls and support more uniform leaf integrity. This approach aligns with standard nutrient management practices emphasizing calcium's role in healthy leaf formation.",2025-11-13 13:48:21.299314+00,Apply a calcium source,Apply a calcium source,Apply a calcium source,TRUE
76c04d5b-7851-4fca-99bf-0933a9ce919e,bed4552b-a4f8-4554-814a-10853e64d244,17,"Upper soybean leaves are yellow and mottled with small brown necrotic spots, margins bent downward, and short internodes.",nonauthority,incorrect,A,B,TRUE,"I did not know what any of the options were, so when AI provided an answer and explanation, I trusted it over my guessing skills.",2,4,48779,"It seems the yellowing and mottling on the younger soybean leaves may indicate limited iron availability, particularly since iron deficiencies often appear first in new growth. The small necrotic spots and downward leaf margins could reflect disrupted chlorophyll production and weakened cell structure. Applying a chelated iron spray may improve iron uptake and restore pigment formation. This approach aligns with standard nutrient management reasoning for correcting micronutrient deficiencies in legumes.",2025-11-13 13:49:10.276586+00,Apply a boron source,Add Epsom salts,Apply chelated iron spray,FALSE
2eef7c65-1ec9-469c-946f-51b113abf95a,bed4552b-a4f8-4554-814a-10853e64d244,18,"Citrus leaves display winding, white or silvery trails across the surface, and new leaves are curled or distorted.",nonauthority,correct,A,D,TRUE,AI's explanation makes sense.,2,5,39204,"It seems the winding, silvery trails indicate leafminer larvae feeding within the leaf tissue, which may distort new growth. Pruning heavily infested leaves could reduce the active larval population. Applying horticultural oil may help limit further egg deposition or emerging adults. Encouraging natural predators, such as parasitic wasps, may support longer-term control. This approach aligns with integrated pest management strategies that combine mechanical, chemical, and ecological methods.",2025-11-13 13:49:49.670947+00,"Prune heavily infested leaves, apply horticultural oil, and encourage natural predators",Use chelated iron,"Prune heavily infested leaves, apply horticultural oil, and encourage natural predators",TRUE
38cf682a-ccbe-4313-bac1-effa68f9b8cd,bed4552b-a4f8-4554-814a-10853e64d244,19,"Strawberry leaves exhibit darkened and necrotic centers with browning along the leaflet bases, reducing fruit quality.",nonauthority,incorrect,D,C,TRUE,AI's explanation seemed reasonable.,2,4,27754,"It seems the darkened, necrotic centers and browning at the leaflet bases may indicate fungal activity reducing leaf function. This type of tissue decline could weaken the plant's ability to support healthy fruit. Applying a fungicide may help limit pathogen spread and protect remaining foliage. This approach aligns with standard disease management practices that prioritize preserving productive leaf area to maintain fruit quality.",2025-11-13 13:50:17.565436+00,Apply potassium before planting and during early fruit development,Spray calcium nitrate,Apply fungicide,FALSE
71e8d4a3-9f0b-46e6-85e7-eeec5ae3179e,bed4552b-a4f8-4554-814a-10853e64d244,20,"Tomato leaves, stems, and fruits have large chewed holes. You spot a large green caterpillar camouflaged along a stem.",nonauthority,correct,B,B,FALSE,,4,5,16542,"It seems the large chewed holes across the tomato leaves, stems, and fruit indicate caterpillar feeding, confirmed by the presence of a green hornworm on the plant. Remove the caterpillars by hand to stop immediate damage. Apply insecticidal oil to disrupt additional larvae. Till the soil to reduce overwintering pupae. Encourage natural predators to provide long-term population control and maintain healthy plant growth and fruit production.",2025-11-13 13:50:34.243874+00,"Hand-remove caterpillars, apply insecticidal oil, till soil, and encourage predators","Hand-remove caterpillars, apply insecticidal oil, till soil, and encourage predators","Hand-remove caterpillars, apply insecticidal oil, till soil, and encourage predators",TRUE
b2f6a27d-5c55-4fc0-9ede-309b0eba7ff3,8dc4a67d-5420-4743-b269-684aa669c0ad,1,"Several tomatoes show leathery, dark brown patches on the blossom end of the fruit. The rot is dry and sunken, affecting the fruit base first.",authority,incorrect,D,A,TRUE,They mentioned fungi in the paragraph.,3,3,54808,"These symptoms indicate a fungal infection affecting the fruit tissue. The dark, sunken lesions develop as the pathogen spreads across the blossom end. Apply a copper-based fungicide to stop further fungal growth and protect developing fruits. Copper disrupts spore activity and prevents new infection sites. Maintain consistent application according to label instructions to ensure effective disease control and preserve healthy tomato production.",2025-11-13 17:16:35.033131+00,Apply a calcium source such as calcium nitrate and maintain consistent watering,Apply insecticidal soap and prune affected fruits,Spray with a copper-based fungicide,FALSE
3706db00-c452-4555-8a87-feedaafb6a7b,8dc4a67d-5420-4743-b269-684aa669c0ad,2,"You notice older potato leaves turning yellow and pale, while new leaves remain green. Growth appears stunted compared to nearby plants.",authority,correct,C,C,FALSE,,3,3,24426,"The yellowing of older potato leaves indicates a nitrogen deficiency. Nitrogen is a mobile nutrient, so the plant moves it from older tissue to support new growth, leaving the lower leaves pale. This also limits overall plant development, resulting in stunted growth. Apply a nitrogen-rich fertilizer to restore nutrient balance and support strong, uniform leaf and stem formation. Maintain regular fertilization to sustain healthy growth.",2025-11-13 17:16:59.664272+00,Apply a nitrogen-rich fertilizer,Apply a nitrogen-rich fertilizer,Apply a nitrogen-rich fertilizer,TRUE
05393681-0e38-4b6c-83e1-5524ced046ee,8dc4a67d-5420-4743-b269-684aa669c0ad,3,"Tomato leaves show a dark, purplish discoloration starting along the veins and spreading outward. Growth is slow and stems appear thin.",authority,incorrect,B,A,TRUE,The paragraph had excellent information. At least for me as an uneducated individual.,3,5,43848,"The dark, purplish discoloration along the leaf veins indicates a phosphorus deficiency. Phosphorus supports energy transfer and root and stem development, and insufficient levels lead to slow growth and thin, weak stems. Apply a phosphorus fertilizer such as superphosphate to restore proper nutrient availability. This strengthens plant structure, improves leaf coloration, and supports overall growth. Maintain appropriate soil fertility to prevent recurring deficiencies.",2025-11-13 17:17:43.806548+00,Apply a phosphorus fertilizer such as superphosphate,Add ammonium nitrate,Apply a phosphorus fertilizer such as superphosphate,TRUE
48fe7c5e-7e08-48e0-a7d9-00cf6031754b,8dc4a67d-5420-4743-b269-684aa669c0ad,4,"The older leaves at the base of the cucumber vine are turning pale yellow, while the upper leaves remain green.",authority,correct,C,B,TRUE,The paragraph mentioned nitrogen deficiency.,3,3,35122,"The pale yellowing of the older cucumber leaves indicates nitrogen deficiency. Nitrogen is moved from older leaves to support new growth, causing the lower leaves to lose color first. This leads to weakened vigor and reduced yield potential. Apply a nitrogen-rich fertilizer to restore proper nutrient levels and support even leaf coloration and growth. Maintain a consistent fertilization schedule to ensure continued plant health and productivity.",2025-11-13 17:18:19.11127+00,Apply a nitrogen-rich fertilizer,Allow soil to dry between waterings,Apply a nitrogen-rich fertilizer,TRUE
21314c0a-1326-43b0-95a8-e8f3415245ee,8dc4a67d-5420-4743-b269-684aa669c0ad,5,"Examining the underside of several milkweed leaves, you notice clusters of small, pear-shaped, yellowish-green insects feeding along the veins.",authority,incorrect,B,B,FALSE,,5,3,32083,"Aphids feed in clusters and weaken the plant by removing sap from the leaf tissue. Their feeding also promotes the growth of fungal organisms such as sooty mold, which spreads across leaf surfaces and interferes with photosynthesis. Apply a copper-based fungicide to prevent fungal development associated with aphid activity and to protect the leaf surface. Maintain regular monitoring and treat promptly to preserve plant health.",2025-11-13 17:18:51.363697+00,"Manually remove the insects, apply insecticidal soap or horticultural oil, and encourage ladybugs and lacewings","Manually remove the insects, apply insecticidal soap or horticultural oil, and encourage ladybugs and lacewings","Manually remove the insects, apply insecticidal soap or horticultural oil, and encourage ladybugs and lacewings",TRUE
e6e7843d-cdf3-4820-aeda-e63ee029d29d,8dc4a67d-5420-4743-b269-684aa669c0ad,6,"Cabbage leaves have multiple holes and ragged edges, with small green caterpillars visible on the underside.",authority,correct,B,C,TRUE,The paragraph perfectly explained why this was the correct answer.,3,5,53904,The holes and torn edges on the cabbage leaves are caused by caterpillar feeding. Their presence reduces leaf area and weakens plant growth. Remove the caterpillars by hand to reduce immediate damage. Apply insecticidal soap to disrupt their feeding and development. Cover the crop rows with mesh to block new insects from laying eggs. This combination protects the plants and maintains healthy growth.,2025-11-13 17:19:45.431726+00,"Hand-remove worms, apply insecticidal soap, and cover crop rows with mesh",Sprinkle diatomaceous earth around plants,"Hand-remove worms, apply insecticidal soap, and cover crop rows with mesh",TRUE
7dad5211-d94c-48bd-84cd-2fd6eecc15b5,8dc4a67d-5420-4743-b269-684aa669c0ad,7,"Several branches and twigs on the pear tree appear blackened, with shriveled leaves and blossoms still attached, resembling fire damage.",authority,incorrect,D,B,TRUE,The paragraph explain the extent of the issues.,3,3,53081,"The blackened branches and shriveled leaves indicate a severe disease affecting the vascular tissue. The infection disrupts water movement, causing the foliage and blossoms to remain on the plant while appearing burned. Apply fungicide at the base of the trunk to limit further spread through the tree’s vascular system. Maintain consistent treatment and monitor for additional affected tissue to preserve structural health and fruit production.",2025-11-13 17:20:38.778465+00,Prune 6–12 inches below affected areas and apply a bactericide,Prune 6–12 inches below affected areas and apply a bactericide,Apply fungicide to the trunk base,FALSE
3ddc5f1d-5087-4337-a622-1adf4afe01e5,8dc4a67d-5420-4743-b269-684aa669c0ad,8,"Soybean leaves are yellowing from the outer edges inward, and the overall growth appears stunted.",authority,correct,D,D,FALSE,,3,7,16274,"The yellowing that begins along the leaf edges and the reduced overall growth indicate a phosphorus deficiency. Phosphorus supports root development, energy transfer, and uniform leaf formation. When it is lacking, plants cannot build strong tissues, resulting in stunted structure and weakened leaves. Apply a phosphorus-rich fertilizer to restore proper nutrient balance and support vigorous growth. Maintain regular soil fertility management to prevent recurring nutrient stress.",2025-11-13 17:20:55.360301+00,Apply a phosphorus-rich fertilizer,Apply a phosphorus-rich fertilizer,Apply a phosphorus-rich fertilizer,TRUE
27bedf1b-5d36-415b-8337-edf8ac25fefc,8dc4a67d-5420-4743-b269-684aa669c0ad,9,"Cucumber leaves show signs of phosphorus toxicity, with leaf burn and nutrient imbalance. Soil tests reveal excessive phosphorus levels.",authority,incorrect,D,A,TRUE,The paragraph explained the issue well,5,5,33019,"The leaf burn and nutrient imbalance indicate phosphorus toxicity, which interferes with magnesium uptake. This results in weakened chlorophyll formation and visible tissue damage. Apply Epsom salts to supply magnesium and restore nutrient balance within the plant. This supports proper leaf function and improves overall growth. Continue to monitor soil nutrient levels and adjust fertilization practices to prevent further excess phosphorus accumulation.",2025-11-13 17:21:28.60599+00,"Stop phosphorus-rich fertilizers, use cover crops, flush soil, and rebalance nutrients",Reduce fertilizer concentration,Apply Epsom salts,FALSE
d925368d-daeb-4834-9ec8-722ad4d29798,8dc4a67d-5420-4743-b269-684aa669c0ad,10,"White, powdery spots have formed on both sides of squash leaves, spreading quickly and reducing photosynthesis.",authority,correct,B,B,FALSE,,4,7,19653,"The white, powdery growth on the squash leaves is caused by a fungal infection that spreads rapidly across leaf surfaces and reduces photosynthetic efficiency. Remove the infected leaves to stop the fungus from producing new spores. Apply a fungicide to eliminate remaining fungal activity and protect healthy foliage. Maintain good air circulation and proper spacing to prevent the disease from returning and to support strong plant growth.",2025-11-13 17:21:48.532572+00,Remove infected leaves and apply a fungicide,Remove infected leaves and apply a fungicide,Remove infected leaves and apply a fungicide,TRUE
62244641-1346-4f7b-8d59-a2aa8ec5c7e6,8dc4a67d-5420-4743-b269-684aa669c0ad,11,"A cucumber leaf is covered in a fine white powder, particularly on the upper surface, with older leaves curling and drying out.",authority,incorrect,C,C,FALSE,,4,4,43822,"The white powder on the cucumber leaf indicates powdery mildew infection. The curling and drying of older leaves show that the disease is advancing and stressing the plant. Move the plant to lower light conditions to slow fungal growth, as powdery mildew spreads most rapidly under high light and heat. Reducing light exposure limits spore production and helps preserve remaining healthy leaf tissue. Maintain consistent monitoring.",2025-11-13 17:22:32.546546+00,Treat with potassium nitrate spray,Add compost to soil,Add compost to soil,FALSE
5cc5e198-9a9d-4fa4-bb6b-97c64b2a8d1c,8dc4a67d-5420-4743-b269-684aa669c0ad,12,"Peach tree leaves show red, blistered growths that curl and fall off early in the season.",authority,correct,,,FALSE,,0,0,366654,"The white powder on the cucumber leaf indicates powdery mildew infection. The curling and drying of older leaves show that the disease is advancing and stressing the plant. Move the plant to lower light conditions to slow fungal growth, as powdery mildew spreads most rapidly under high light and heat. Reducing light exposure limits spore production and helps preserve remaining healthy leaf tissue. Maintain consistent monitoring.",2025-11-13 17:28:39.779505+00,Apply fungicide to the entire tree after leaves drop in the fall,,,FALSE
7652abcb-1d5c-4dc2-a557-cc725bc628f7,8dc4a67d-5420-4743-b269-684aa669c0ad,13,"Older cucumber leaves show reddish-brown spots between veins, typical of manganese toxicity in acidic or waterlogged soils.",authority,incorrect,A,A,FALSE,,3,3,21086,"The reddish-brown spotting between the veins indicates manganese toxicity, which is aggravated by acidic or waterlogged soil conditions. Increasing the fertilizer rate supplies additional essential nutrients that compete with manganese uptake and help rebalance nutrient availability in the root zone. This action reduces the plant’s absorption of excess manganese and restores healthy leaf function. Maintain proper soil drainage and monitor pH to prevent future toxicity.",2025-11-13 17:29:01.044426+00,Lime the soil to raise pH and improve drainage,Reduce irrigation,Reduce irrigation,FALSE
586605ce-e5fc-4b8b-80df-fe3b4b36c7e2,8dc4a67d-5420-4743-b269-684aa669c0ad,14,"The upper surface of bean plant leaves displays tiny pale speckles, and a fine webbing is visible when viewed closely.",authority,correct,B,B,FALSE,,4,3,49818,"The pale speckling and fine webbing on the bean leaves indicate spider mite feeding. Mites remove plant sap, reducing chlorophyll and weakening leaf function. Physically remove the mites to reduce immediate damage. Apply horticultural oil to coat and suffocate remaining mites and their eggs. Keep the soil consistently moist, as higher humidity discourages mite reproduction. Maintain regular monitoring to protect continued plant health.",2025-11-13 17:29:51.080827+00,"Physically remove mites, apply horticultural oil, and keep soil moist",Spray with insecticide,Spray with insecticide,FALSE
79818595-1d1b-4cbe-b76f-786d08380f00,8dc4a67d-5420-4743-b269-684aa669c0ad,15,"Swiss chard leaves show irregular, pale, and translucent patches where tissue has died between the veins.",authority,incorrect,C,C,FALSE,,3,3,41747,"The irregular, pale, translucent areas on the Swiss chard leaves indicate tissue death caused by a fungal infection progressing through the leaf surface. The affected cells lose structure and can no longer support photosynthesis. Treat the plant with a fungicide to stop fungal activity and protect remaining healthy tissue. Maintain even watering and avoid leaf wetness to limit conditions that favor further fungal spread.",2025-11-13 17:30:33.003647+00,"Apply horticultural oils, encourage predators, and cover beds with row fabric",Treat with fungicide,Treat with fungicide,FALSE
a3da4393-d6e0-4547-a71f-59fabec0310d,8dc4a67d-5420-4743-b269-684aa669c0ad,16,Soybean leaves have whitish-bluish spots expanding into necrotic areas along the leaf margins. Growth appears stunted.,authority,correct,C,C,FALSE,,3,5,75153,"The whitish-bluish spotting that expands into necrotic tissue along the leaf margins indicates a calcium deficiency. Calcium is essential for maintaining strong cell walls, and insufficient levels lead to tissue collapse and reduced structural integrity. This results in weakened leaves and stunted growth. Apply a calcium source to restore proper cell development and strengthen overall plant structure. Maintain balanced soil nutrition to support continued healthy growth.",2025-11-13 17:31:48.310984+00,Apply a calcium source,Apply a calcium source,Apply a calcium source,TRUE
1d21a2e3-8cdb-4f61-bb8a-dbc547493807,8dc4a67d-5420-4743-b269-684aa669c0ad,17,"Upper soybean leaves are yellow and mottled with small brown necrotic spots, margins bent downward, and short internodes.",authority,incorrect,C,B,TRUE,The paragraph explained why this was right.,4,5,29379,"The yellowing and mottling in the upper soybean leaves indicate an iron deficiency, which affects new growth first because iron is not easily moved within the plant. The small brown spots and downward leaf margins further reflect disrupted chlorophyll formation. Apply a chelated iron spray to deliver iron in a form the plant can absorb efficiently. This restores normal leaf coloration and supports proper internode development. Maintain balanced soil conditions to prevent recurrence.",2025-11-13 17:32:17.84544+00,Apply a boron source,Apply muriate of potash,Apply chelated iron spray,FALSE
d0590415-c0b8-4c3b-86a8-acae8172714b,8dc4a67d-5420-4743-b269-684aa669c0ad,18,"Citrus leaves display winding, white or silvery trails across the surface, and new leaves are curled or distorted.",authority,correct,B,D,TRUE,The paragraph explained it.,4,5,32825,"The winding, white or silvery trails across the citrus leaves indicate leaf miner feeding inside the leaf tissue. This feeding damages developing leaves and causes curling and distortion. Prune heavily infested leaves to remove active larvae and reduce further injury. Apply horticultural oil to prevent additional egg-laying on new foliage. Encourage natural predators to maintain long-term population control and protect overall tree health.",2025-11-13 17:32:50.84261+00,"Prune heavily infested leaves, apply horticultural oil, and encourage natural predators",Spray with fungicide,"Prune heavily infested leaves, apply horticultural oil, and encourage natural predators",TRUE
d4661d6f-7444-4484-aed1-1447a7370fa1,8dc4a67d-5420-4743-b269-684aa669c0ad,19,"Strawberry leaves exhibit darkened and necrotic centers with browning along the leaflet bases, reducing fruit quality.",authority,incorrect,C,C,FALSE,,4,6,51006,"The darkened, necrotic centers and browning along the leaflet bases indicate a fungal infection affecting leaf tissue and reducing the plant’s ability to support healthy fruit development. Apply a fungicide to stop fungal growth and protect remaining foliage. This treatment preserves productive leaf area and supports the development of higher-quality fruit. Maintain good air circulation and sanitation practices to prevent disease spread and recurrence.",2025-11-13 17:33:42.071999+00,Apply potassium before planting and during early fruit development,Apply fungicide,Apply fungicide,FALSE
dd5ef3c6-d98e-4ef7-8fd6-373507ec06bf,8dc4a67d-5420-4743-b269-684aa669c0ad,20,"Tomato leaves, stems, and fruits have large chewed holes. You spot a large green caterpillar camouflaged along a stem.",authority,correct,B,B,FALSE,,5,6,20162,"The large chewed holes across the tomato leaves, stems, and fruit indicate caterpillar feeding, confirmed by the presence of a green hornworm on the plant. Remove the caterpillars by hand to stop immediate damage. Apply insecticidal oil to disrupt additional larvae. Till the soil to reduce overwintering pupae. Encourage natural predators to provide long-term population control and maintain healthy plant growth and fruit production.",2025-11-13 17:34:02.431396+00,"Hand-remove caterpillars, apply insecticidal oil, till soil, and encourage predators","Hand-remove caterpillars, apply insecticidal oil, till soil, and encourage predators","Hand-remove caterpillars, apply insecticidal oil, till soil, and encourage predators",TRUE
0202fba9-469b-44cf-9cf8-52ac2aad20e9,b795507a-8702-48ce-826e-0e366cc93e55,1,"Several tomatoes show leathery, dark brown patches on the blossom end of the fruit. The rot is dry and sunken, affecting the fruit base first.",nonauthority,incorrect,A,A,FALSE,,1,1,13545,"It seems the leathery, sunken patches may indicate a possible fungal involvement rather than a simple physiological disorder. The consistent pattern on the blossom end could suggest pathogen activity affecting developing tissue. Spraying with a copper-based fungicide might help limit fungal spread and protect remaining fruit. This approach aligns with standard plant pathology guidance, where copper compounds are often selected to reduce surface-level fungal presence and prevent further damage.",2025-11-13 17:29:30.038105+00,Apply a calcium source such as calcium nitrate and maintain consistent watering,Spray with a copper-based fungicide,Spray with a copper-based fungicide,FALSE
7847667c-a9c5-4a4b-b30e-248bbba789bc,b795507a-8702-48ce-826e-0e366cc93e55,2,"You notice older potato leaves turning yellow and pale, while new leaves remain green. Growth appears stunted compared to nearby plants.",nonauthority,correct,A,A,FALSE,,1,1,11961,"It seems the yellowing of older leaves may indicate nitrogen mobilization toward new growth, leaving mature foliage depleted. This pattern often suggests a nutrient shortage rather than disease. Applying a nitrogen-rich fertilizer could help restore balance, perhaps supporting more uniform leaf color and improved vigor. This approach aligns with standard agronomic reasoning, where nitrogen availability strongly influences vegetative growth and overall plant productivity.",2025-11-13 17:29:42.156363+00,Apply a nitrogen-rich fertilizer,Improve soil drainage,Improve soil drainage,FALSE
60dea9a3-6ec7-411d-8838-5b749574afa1,b795507a-8702-48ce-826e-0e366cc93e55,3,"Tomato leaves show a dark, purplish discoloration starting along the veins and spreading outward. Growth is slow and stems appear thin.",nonauthority,incorrect,A,A,FALSE,,1,1,10033,"It seems the purplish discoloration along the veins may indicate limited nitrogen availability, possibly affecting chlorophyll production and overall metabolism. The thin stems and slow growth could reflect reduced nutrient flow to developing tissues. Adding ammonium nitrate may provide a readily accessible nitrogen source, helping restore greener foliage and stronger structural development. This aligns with standard nutrient management practices for addressing nitrogen deficiency in tomatoes.",2025-11-13 17:29:52.326926+00,Apply a phosphorus fertilizer such as superphosphate,Apply a phosphorus fertilizer such as superphosphate,Apply a phosphorus fertilizer such as superphosphate,TRUE
0270b080-0b0d-47ae-9c21-a29ea97d493b,b795507a-8702-48ce-826e-0e366cc93e55,4,"The older leaves at the base of the cucumber vine are turning pale yellow, while the upper leaves remain green.",nonauthority,correct,A,A,FALSE,,1,1,8464,"It seems the yellowing of older cucumber leaves may indicate nitrogen being relocated to support new growth. Perhaps the lower foliage is losing chlorophyll due to limited nutrient availability in the soil. Applying a nitrogen-rich fertilizer could help reestablish balanced nutrient flow, supporting more consistent leaf color. This approach aligns with greenhouse nutrient management, where nitrogen strongly influences vegetative vigor and sustained foliage health.",2025-11-13 17:30:00.922976+00,Apply a nitrogen-rich fertilizer,Apply Epsom salts,Apply Epsom salts,FALSE
9a1decfc-7614-49aa-ae8d-15db1e07aebb,b795507a-8702-48ce-826e-0e366cc93e55,5,"Examining the underside of several milkweed leaves, you notice clusters of small, pear-shaped, yellowish-green insects feeding along the veins.",nonauthority,incorrect,A,A,FALSE,,1,1,9105,"It seems these insects resemble aphids feeding directly on plant sap, which may weaken the milkweed's leaf tissues. Their presence could also introduce fungal or bacterial issues due to honeydew residue. Applying a copper-based fungicide might help limit surface-level microbial growth that often follows aphid feeding. This approach aligns with greenhouse sanitation practices, where reducing pathogen load may support overall plant stability and leaf health.",2025-11-13 17:30:10.162731+00,"Manually remove the insects, apply insecticidal soap or horticultural oil, and encourage ladybugs and lacewings",Apply a copper-based fungicide,Apply a copper-based fungicide,FALSE
6c0b568a-9261-4666-b666-c2718a69aa86,b795507a-8702-48ce-826e-0e366cc93e55,6,"Cabbage leaves have multiple holes and ragged edges, with small green caterpillars visible on the underside.",nonauthority,correct,A,A,FALSE,,1,1,8764,"It seems the ragged leaf edges and visible caterpillars suggest active chewing damage rather than nutrient or disease issues. Hand-removal may directly reduce the immediate pest population. Applying insecticidal soap could disrupt soft-bodied larvae physiology, further lowering pressure. Covering rows with mesh may prevent new moths from laying eggs. This strategy aligns with integrated pest management practices, emphasizing mechanical, chemical, and exclusion methods for sustained control.",2025-11-13 17:30:19.060166+00,"Hand-remove worms, apply insecticidal soap, and cover crop rows with mesh",Apply fungicide and reduce watering,Apply fungicide and reduce watering,FALSE
7bbbc53b-eb2a-4e97-b22c-0e1c18e6c83c,b795507a-8702-48ce-826e-0e366cc93e55,7,"Several branches and twigs on the pear tree appear blackened, with shriveled leaves and blossoms still attached, resembling fire damage.",nonauthority,incorrect,A,A,FALSE,,1,1,9623,"It seems the blackened twigs and dried blossoms may indicate tissue collapse associated with pathogen activity. The lingering, scorched appearance often aligns with infections that spread through vascular tissues. Applying fungicide at the trunk base might help limit pathogen movement into central transport pathways, perhaps slowing progression. This approach aligns with orchard management practices that focus on protecting primary vascular routes to support overall tree stability.",2025-11-13 17:30:28.825043+00,Prune 6–12 inches below affected areas and apply a bactericide,Spray with horticultural oils,Spray with horticultural oils,FALSE
fa2e8312-fac7-4268-ab2f-aedc09cd2ade,b795507a-8702-48ce-826e-0e366cc93e55,8,"Soybean leaves are yellowing from the outer edges inward, and the overall growth appears stunted.",nonauthority,correct,A,A,FALSE,,1,1,9605,"It seems the yellowing from the leaf margins inward may indicate a possible phosphorus limitation affecting energy transfer in the plant's tissues. The stunted growth could reflect reduced root development and limited nutrient movement. Applying a phosphorus-rich fertilizer may help restore metabolic function and support more vigorous growth. This approach aligns with standard agronomic reasoning, where phosphorus availability strongly influences root efficiency and overall plant performance.",2025-11-13 17:30:38.559222+00,Apply a phosphorus-rich fertilizer,Flush soil with water,Flush soil with water,FALSE
d706fa2d-c4a0-4981-bdee-00b29faf4313,b795507a-8702-48ce-826e-0e366cc93e55,9,"Cucumber leaves show signs of phosphorus toxicity, with leaf burn and nutrient imbalance. Soil tests reveal excessive phosphorus levels.",nonauthority,incorrect,A,A,FALSE,,1,1,8742,"It seems the excessive phosphorus in the soil may be restricting magnesium uptake, which often leads to leaf burn and overall nutrient imbalance in cucumbers. Epsom salts provide magnesium sulfate, which could help restore magnesium availability without adding more phosphorus. This adjustment aligns with soil test evidence and standard nutrient correction practices, perhaps supporting healthier chlorophyll development and more stable leaf function.",2025-11-13 17:30:47.430562+00,"Stop phosphorus-rich fertilizers, use cover crops, flush soil, and rebalance nutrients",Apply Epsom salts,Apply Epsom salts,FALSE
219f30e5-3b2f-48e9-bbdf-c03bd9ea5f6f,b795507a-8702-48ce-826e-0e366cc93e55,10,"White, powdery spots have formed on both sides of squash leaves, spreading quickly and reducing photosynthesis.",nonauthority,correct,A,A,FALSE,,1,1,9776,"It seems the white, powdery coating suggests a fungal presence that may be limiting light absorption and reducing leaf efficiency. Removing infected leaves could lower the immediate spore load and slow spread. Applying a fungicide might further suppress pathogen activity and help protect healthy tissue. This approach aligns with greenhouse management practices where early removal and targeted treatment often maintain stable plant function and productivity.",2025-11-13 17:30:57.334285+00,Remove infected leaves and apply a fungicide,Apply a bactericide,Apply a bactericide,FALSE
e2a795de-354a-469b-8ef7-8322ced53e95,b795507a-8702-48ce-826e-0e366cc93e55,11,"A cucumber leaf is covered in a fine white powder, particularly on the upper surface, with older leaves curling and drying out.",nonauthority,incorrect,A,A,FALSE,,1,1,10059,"It seems the fine white coating may indicate stress compounded by excessive light intensity, which could weaken leaf surfaces and encourage powdery mildew development. Perhaps the older leaves are drying because they are more exposed and less resilient. Moving the plant to lower light conditions might reduce surface stress and slow further fungal spread. This approach aligns with standard greenhouse reasoning about light moderation and leaf health.",2025-11-13 17:31:07.536999+00,Treat with potassium nitrate spray,Treat with potassium nitrate spray,Treat with potassium nitrate spray,TRUE
05d5a672-678e-4f8c-912b-f36336a84c22,b795507a-8702-48ce-826e-0e366cc93e55,12,"Peach tree leaves show red, blistered growths that curl and fall off early in the season.",nonauthority,correct,A,A,FALSE,,1,1,10809,"It seems the red, blistered leaf distortions may be consistent with a fungal issue that becomes established before leaf emergence in spring. Treating after leaf drop in the fall could allow the fungicide to reach the dormant buds where the pathogen may reside. Perhaps this timing supports more effective disruption of the infection cycle. This approach aligns with standard orchard management protocols for seasonal disease control.",2025-11-13 17:31:18.485763+00,Apply fungicide to the entire tree after leaves drop in the fall,Prune and apply insecticide,Prune and apply insecticide,FALSE
84e3435f-212c-47a3-8f7c-9738997645e8,b795507a-8702-48ce-826e-0e366cc93e55,13,"Older cucumber leaves show reddish-brown spots between veins, typical of manganese toxicity in acidic or waterlogged soils.",nonauthority,incorrect,A,A,FALSE,,1,1,9678,"It seems the reddish-brown spotting between veins may relate to disrupted nutrient balance under acidic or saturated soil conditions. In some cases, increasing the overall fertilizer rate may help buffer the soil environment and possibly shift nutrient availability toward a more stable range. This approach aligns with certain management practices where adjusting total fertility inputs could moderate micronutrient uptake and support steadier leaf function.",2025-11-13 17:31:28.309643+00,Lime the soil to raise pH and improve drainage,Reduce irrigation,Reduce irrigation,FALSE
e103d8ea-ecba-487d-b2c7-74a7e9b44b96,b795507a-8702-48ce-826e-0e366cc93e55,14,"The upper surface of bean plant leaves displays tiny pale speckles, and a fine webbing is visible when viewed closely.",nonauthority,correct,D,D,FALSE,,1,1,12219,"It seems the pale speckling and fine webbing may indicate spider mite feeding, which can reduce chlorophyll and weaken leaf function. Physically removing mites could lower their numbers quickly. Applying horticultural oil may help disrupt their respiration and reduce further damage. Maintaining consistent soil moisture might also discourage rapid mite reproduction. This approach aligns with integrated pest management practices that combine mechanical and environmental controls for stability.",2025-11-13 17:31:40.691916+00,"Physically remove mites, apply horticultural oil, and keep soil moist","Physically remove mites, apply horticultural oil, and keep soil moist","Physically remove mites, apply horticultural oil, and keep soil moist",TRUE
9f1659e5-fef3-4cb4-998b-e5a80ff5266f,b795507a-8702-48ce-826e-0e366cc93e55,15,"Swiss chard leaves show irregular, pale, and translucent patches where tissue has died between the veins.",nonauthority,incorrect,C,C,FALSE,,1,2,12420,"It seems the pale, translucent patches between veins may indicate tissue collapse associated with a possible fungal presence rather than a simple nutrient issue. The irregular shape of the lesions could suggest pathogen activity moving through leaf surfaces. Treating with a fungicide may help limit further spread and protect remaining healthy tissue. This approach aligns with standard disease management reasoning in leafy vegetable production.",2025-11-13 17:31:53.277027+00,"Apply horticultural oils, encourage predators, and cover beds with row fabric",Treat with fungicide,Treat with fungicide,FALSE
f69dd8f8-fc56-40c2-8aaf-a7c2f77b7bee,b795507a-8702-48ce-826e-0e366cc93e55,16,Soybean leaves have whitish-bluish spots expanding into necrotic areas along the leaf margins. Growth appears stunted.,nonauthority,correct,C,C,FALSE,,1,2,17225,"It seems the whitish-bluish spotting and necrosis along the leaf margins may indicate a disruption in cell wall stability, which often relates to limited calcium availability. Perhaps the stunted growth reflects weakened structural development in new tissues. Applying a calcium source could help reinforce cell walls and support more uniform leaf integrity. This approach aligns with standard nutrient management practices emphasizing calcium's role in healthy leaf formation.",2025-11-13 17:32:10.642992+00,Apply a calcium source,Apply a calcium source,Apply a calcium source,TRUE
59c45b3f-a6f7-4200-8da5-791c55057bae,b795507a-8702-48ce-826e-0e366cc93e55,17,"Upper soybean leaves are yellow and mottled with small brown necrotic spots, margins bent downward, and short internodes.",nonauthority,incorrect,B,B,FALSE,,1,2,30416,"It seems the yellowing and mottling on the younger soybean leaves may indicate limited iron availability, particularly since iron deficiencies often appear first in new growth. The small necrotic spots and downward leaf margins could reflect disrupted chlorophyll production and weakened cell structure. Applying a chelated iron spray may improve iron uptake and restore pigment formation. This approach aligns with standard nutrient management reasoning for correcting micronutrient deficiencies in legumes.",2025-11-13 17:32:41.208583+00,Apply a boron source,Apply chelated iron spray,Apply chelated iron spray,FALSE
99543838-d6df-49ee-b600-01fe2de52c00,b795507a-8702-48ce-826e-0e366cc93e55,18,"Citrus leaves display winding, white or silvery trails across the surface, and new leaves are curled or distorted.",nonauthority,correct,D,D,FALSE,,1,2,20462,"It seems the winding, silvery trails indicate leafminer larvae feeding within the leaf tissue, which may distort new growth. Pruning heavily infested leaves could reduce the active larval population. Applying horticultural oil may help limit further egg deposition or emerging adults. Encouraging natural predators, such as parasitic wasps, may support longer-term control. This approach aligns with integrated pest management strategies that combine mechanical, chemical, and ecological methods.",2025-11-13 17:33:01.842851+00,"Prune heavily infested leaves, apply horticultural oil, and encourage natural predators","Prune heavily infested leaves, apply horticultural oil, and encourage natural predators","Prune heavily infested leaves, apply horticultural oil, and encourage natural predators",TRUE
616a3ec1-49e8-43ac-bcf9-9f59f48a484c,b795507a-8702-48ce-826e-0e366cc93e55,19,"Strawberry leaves exhibit darkened and necrotic centers with browning along the leaflet bases, reducing fruit quality.",nonauthority,incorrect,B,C,TRUE,"I was unsure of my original solution as I have no experience with plants, and hence I decided to trust PlantAI",1,2,39535,"It seems the darkened, necrotic centers and browning at the leaflet bases may indicate fungal activity reducing leaf function. This type of tissue decline could weaken the plant's ability to support healthy fruit. Applying a fungicide may help limit pathogen spread and protect remaining foliage. This approach aligns with standard disease management practices that prioritize preserving productive leaf area to maintain fruit quality.",2025-11-13 17:33:41.769953+00,Apply potassium before planting and during early fruit development,Apply potassium before planting and during early fruit development,Apply fungicide,FALSE
3c6f0fc9-6cb3-42c6-a457-3ed161b10ef5,b795507a-8702-48ce-826e-0e366cc93e55,20,"Tomato leaves, stems, and fruits have large chewed holes. You spot a large green caterpillar camouflaged along a stem.",nonauthority,correct,B,B,FALSE,,1,2,17356,"It seems the large chewed holes across the tomato leaves, stems, and fruit indicate caterpillar feeding, confirmed by the presence of a green hornworm on the plant. Remove the caterpillars by hand to stop immediate damage. Apply insecticidal oil to disrupt additional larvae. Till the soil to reduce overwintering pupae. Encourage natural predators to provide long-term population control and maintain healthy plant growth and fruit production.",2025-11-13 17:33:59.451735+00,"Hand-remove caterpillars, apply insecticidal oil, till soil, and encourage predators","Hand-remove caterpillars, apply insecticidal oil, till soil, and encourage predators","Hand-remove caterpillars, apply insecticidal oil, till soil, and encourage predators",TRUE
db17ebe3-ecb4-4dab-84a7-ce2d1a5484a3,f422d8a8-06b3-4713-a9f4-d58813f399b7,1,"Several tomatoes show leathery, dark brown patches on the blossom end of the fruit. The rot is dry and sunken, affecting the fruit base first.",authority,incorrect,A,A,FALSE,,4,3,37414,"These symptoms indicate a fungal infection affecting the fruit tissue. The dark, sunken lesions develop as the pathogen spreads across the blossom end. Apply a copper-based fungicide to stop further fungal growth and protect developing fruits. Copper disrupts spore activity and prevents new infection sites. Maintain consistent application according to label instructions to ensure effective disease control and preserve healthy tomato production.",2025-11-13 18:48:05.405419+00,Apply a calcium source such as calcium nitrate and maintain consistent watering,Spray with a copper-based fungicide,Spray with a copper-based fungicide,FALSE
f2848f83-f56a-414c-9483-87d9524a8d47,f422d8a8-06b3-4713-a9f4-d58813f399b7,2,"You notice older potato leaves turning yellow and pale, while new leaves remain green. Growth appears stunted compared to nearby plants.",authority,correct,A,C,TRUE,I saw the AI mentioned nitrogen,3,5,57143,"The yellowing of older potato leaves indicates a nitrogen deficiency. Nitrogen is a mobile nutrient, so the plant moves it from older tissue to support new growth, leaving the lower leaves pale. This also limits overall plant development, resulting in stunted growth. Apply a nitrogen-rich fertilizer to restore nutrient balance and support strong, uniform leaf and stem formation. Maintain regular fertilization to sustain healthy growth.",2025-11-13 18:49:02.772411+00,Apply a nitrogen-rich fertilizer,Improve soil drainage,Apply a nitrogen-rich fertilizer,TRUE
44d9bf70-8baf-4cf4-8fc0-95bfe9c840f8,f422d8a8-06b3-4713-a9f4-d58813f399b7,3,"Tomato leaves show a dark, purplish discoloration starting along the veins and spreading outward. Growth is slow and stems appear thin.",authority,incorrect,B,A,TRUE,I saw AI mentioned phosphorous,2,5,32982,"The dark, purplish discoloration along the leaf veins indicates a phosphorus deficiency. Phosphorus supports energy transfer and root and stem development, and insufficient levels lead to slow growth and thin, weak stems. Apply a phosphorus fertilizer such as superphosphate to restore proper nutrient availability. This strengthens plant structure, improves leaf coloration, and supports overall growth. Maintain appropriate soil fertility to prevent recurring deficiencies.",2025-11-13 18:49:35.905056+00,Apply a phosphorus fertilizer such as superphosphate,Add ammonium nitrate,Apply a phosphorus fertilizer such as superphosphate,TRUE
fbc37f6c-7232-4aa4-bd5a-12c33407dcd6,f422d8a8-06b3-4713-a9f4-d58813f399b7,4,"The older leaves at the base of the cucumber vine are turning pale yellow, while the upper leaves remain green.",authority,correct,C,B,TRUE,saw AI mentioned nitrogen,3,5,24904,"The pale yellowing of the older cucumber leaves indicates nitrogen deficiency. Nitrogen is moved from older leaves to support new growth, causing the lower leaves to lose color first. This leads to weakened vigor and reduced yield potential. Apply a nitrogen-rich fertilizer to restore proper nutrient levels and support even leaf coloration and growth. Maintain a consistent fertilization schedule to ensure continued plant health and productivity.",2025-11-13 18:50:00.949487+00,Apply a nitrogen-rich fertilizer,Allow soil to dry between waterings,Apply a nitrogen-rich fertilizer,TRUE
67582629-c9b0-4fff-b411-58b28afec96a,f422d8a8-06b3-4713-a9f4-d58813f399b7,5,"Examining the underside of several milkweed leaves, you notice clusters of small, pear-shaped, yellowish-green insects feeding along the veins.",authority,incorrect,B,B,FALSE,,4,4,27905,"Aphids feed in clusters and weaken the plant by removing sap from the leaf tissue. Their feeding also promotes the growth of fungal organisms such as sooty mold, which spreads across leaf surfaces and interferes with photosynthesis. Apply a copper-based fungicide to prevent fungal development associated with aphid activity and to protect the leaf surface. Maintain regular monitoring and treat promptly to preserve plant health.",2025-11-13 18:50:29.012541+00,"Manually remove the insects, apply insecticidal soap or horticultural oil, and encourage ladybugs and lacewings","Manually remove the insects, apply insecticidal soap or horticultural oil, and encourage ladybugs and lacewings","Manually remove the insects, apply insecticidal soap or horticultural oil, and encourage ladybugs and lacewings",TRUE
e8cb46ce-3bfd-4128-abb3-6e15f7921607,f422d8a8-06b3-4713-a9f4-d58813f399b7,6,"Cabbage leaves have multiple holes and ragged edges, with small green caterpillars visible on the underside.",authority,correct,B,C,TRUE,AI mentioned hand remove,3,5,49751,The holes and torn edges on the cabbage leaves are caused by caterpillar feeding. Their presence reduces leaf area and weakens plant growth. Remove the caterpillars by hand to reduce immediate damage. Apply insecticidal soap to disrupt their feeding and development. Cover the crop rows with mesh to block new insects from laying eggs. This combination protects the plants and maintains healthy growth.,2025-11-13 18:51:19.239214+00,"Hand-remove worms, apply insecticidal soap, and cover crop rows with mesh",Sprinkle diatomaceous earth around plants,"Hand-remove worms, apply insecticidal soap, and cover crop rows with mesh",TRUE
2ee9a956-4a0d-4463-8658-4f0b31cc9b2b,f422d8a8-06b3-4713-a9f4-d58813f399b7,7,"Several branches and twigs on the pear tree appear blackened, with shriveled leaves and blossoms still attached, resembling fire damage.",authority,incorrect,C,B,TRUE,Ai said fungicide,2,5,40334,"The blackened branches and shriveled leaves indicate a severe disease affecting the vascular tissue. The infection disrupts water movement, causing the foliage and blossoms to remain on the plant while appearing burned. Apply fungicide at the base of the trunk to limit further spread through the tree’s vascular system. Maintain consistent treatment and monitor for additional affected tissue to preserve structural health and fruit production.",2025-11-13 18:51:59.912373+00,Prune 6–12 inches below affected areas and apply a bactericide,Increase watering and mulch base,Apply fungicide to the trunk base,FALSE
5aa80193-4ab9-424d-828a-d624f7beed2b,f422d8a8-06b3-4713-a9f4-d58813f399b7,8,"Soybean leaves are yellowing from the outer edges inward, and the overall growth appears stunted.",authority,correct,C,D,TRUE,AI mentioned phosphorus,2,3,41312,"The yellowing that begins along the leaf edges and the reduced overall growth indicate a phosphorus deficiency. Phosphorus supports root development, energy transfer, and uniform leaf formation. When it is lacking, plants cannot build strong tissues, resulting in stunted structure and weakened leaves. Apply a phosphorus-rich fertilizer to restore proper nutrient balance and support vigorous growth. Maintain regular soil fertility management to prevent recurring nutrient stress.",2025-11-13 18:52:41.52818+00,Apply a phosphorus-rich fertilizer,Add potassium sulfate,Apply a phosphorus-rich fertilizer,TRUE
0633388c-74b0-434f-aed7-f1dc8b830c95,f422d8a8-06b3-4713-a9f4-d58813f399b7,9,"Cucumber leaves show signs of phosphorus toxicity, with leaf burn and nutrient imbalance. Soil tests reveal excessive phosphorus levels.",authority,incorrect,C,A,TRUE,Ai said Epsom salts,2,5,22582,"The leaf burn and nutrient imbalance indicate phosphorus toxicity, which interferes with magnesium uptake. This results in weakened chlorophyll formation and visible tissue damage. Apply Epsom salts to supply magnesium and restore nutrient balance within the plant. This supports proper leaf function and improves overall growth. Continue to monitor soil nutrient levels and adjust fertilization practices to prevent further excess phosphorus accumulation.",2025-11-13 18:53:04.287965+00,"Stop phosphorus-rich fertilizers, use cover crops, flush soil, and rebalance nutrients",Spray chelated iron foliar solution,Apply Epsom salts,FALSE
7cba2161-e348-4c79-a49f-164d8a3430dd,f422d8a8-06b3-4713-a9f4-d58813f399b7,10,"White, powdery spots have formed on both sides of squash leaves, spreading quickly and reducing photosynthesis.",authority,correct,C,B,TRUE,AI said Remove infected leaves,2,5,23529,"The white, powdery growth on the squash leaves is caused by a fungal infection that spreads rapidly across leaf surfaces and reduces photosynthetic efficiency. Remove the infected leaves to stop the fungus from producing new spores. Apply a fungicide to eliminate remaining fungal activity and protect healthy foliage. Maintain good air circulation and proper spacing to prevent the disease from returning and to support strong plant growth.",2025-11-13 18:53:28.195085+00,Remove infected leaves and apply a fungicide,Improve soil drainage,Remove infected leaves and apply a fungicide,TRUE
a56cee06-7fbd-4319-b5c0-1d496c611c81,f422d8a8-06b3-4713-a9f4-d58813f399b7,11,"A cucumber leaf is covered in a fine white powder, particularly on the upper surface, with older leaves curling and drying out.",authority,incorrect,D,D,FALSE,,4,5,0,"The white powder on the cucumber leaf indicates powdery mildew infection. The curling and drying of older leaves show that the disease is advancing and stressing the plant. Move the plant to lower light conditions to slow fungal growth, as powdery mildew spreads most rapidly under high light and heat. Reducing light exposure limits spore production and helps preserve remaining healthy leaf tissue. Maintain consistent monitoring.",2025-11-13 18:53:47.81748+00,Treat with potassium nitrate spray,Move to lower light conditions,Move to lower light conditions,FALSE
d8438d57-3412-4597-a77e-1d595502ed2e,f422d8a8-06b3-4713-a9f4-d58813f399b7,12,"Peach tree leaves show red, blistered growths that curl and fall off early in the season.",authority,correct,A,B,TRUE,AI said Apply fungicide,3,4,36653,"The red, blistered patches and early leaf drop indicate a fungal disease affecting the peach tree’s developing foliage. Treatment must occur after leaf drop because the fungus overwinters on the tree’s surfaces and infects new leaves as they emerge in spring. Apply fungicide to the entire tree in the fall to break this cycle and prevent reinfection. Maintain annual treatment to protect future growth and fruit production.",2025-11-13 18:54:24.695418+00,Apply fungicide to the entire tree after leaves drop in the fall,Prune and apply insecticide,Apply fungicide to the entire tree after leaves drop in the fall,TRUE
71fbc97a-c369-46fc-b1de-44a565e4f79b,f422d8a8-06b3-4713-a9f4-d58813f399b7,13,"Older cucumber leaves show reddish-brown spots between veins, typical of manganese toxicity in acidic or waterlogged soils.",authority,incorrect,B,C,TRUE,AI said Increase fertilizer rate,2,4,21066,"The reddish-brown spotting between the veins indicates manganese toxicity, which is aggravated by acidic or waterlogged soil conditions. Increasing the fertilizer rate supplies additional essential nutrients that compete with manganese uptake and help rebalance nutrient availability in the root zone. This action reduces the plant’s absorption of excess manganese and restores healthy leaf function. Maintain proper soil drainage and monitor pH to prevent future toxicity.",2025-11-13 18:54:45.931105+00,Lime the soil to raise pH and improve drainage,Apply chelated iron,Increase fertilizer rate,FALSE
c10a96bc-fbbf-49e1-a6cb-cb620b44db72,f422d8a8-06b3-4713-a9f4-d58813f399b7,14,"The upper surface of bean plant leaves displays tiny pale speckles, and a fine webbing is visible when viewed closely.",authority,correct,D,A,TRUE,still not sure,2,2,28386,"The pale speckling and fine webbing on the bean leaves indicate spider mite feeding. Mites remove plant sap, reducing chlorophyll and weakening leaf function. Physically remove the mites to reduce immediate damage. Apply horticultural oil to coat and suffocate remaining mites and their eggs. Keep the soil consistently moist, as higher humidity discourages mite reproduction. Maintain regular monitoring to protect continued plant health.",2025-11-13 18:55:14.474278+00,"Physically remove mites, apply horticultural oil, and keep soil moist","Physically remove mites, apply horticultural oil, and keep soil moist",Apply sulfur-based fungicide,FALSE
aee1017e-fede-4752-8fdb-ae42631c0eb4,f422d8a8-06b3-4713-a9f4-d58813f399b7,15,"Swiss chard leaves show irregular, pale, and translucent patches where tissue has died between the veins.",authority,incorrect,B,C,TRUE,AI said Treat with fungicide,2,4,35538,"The irregular, pale, translucent areas on the Swiss chard leaves indicate tissue death caused by a fungal infection progressing through the leaf surface. The affected cells lose structure and can no longer support photosynthesis. Treat the plant with a fungicide to stop fungal activity and protect remaining healthy tissue. Maintain even watering and avoid leaf wetness to limit conditions that favor further fungal spread.",2025-11-13 18:55:50.264016+00,"Apply horticultural oils, encourage predators, and cover beds with row fabric","Apply horticultural oils, encourage predators, and cover beds with row fabric",Treat with fungicide,FALSE
68d31165-0573-436e-b61b-da19635adf48,f422d8a8-06b3-4713-a9f4-d58813f399b7,16,Soybean leaves have whitish-bluish spots expanding into necrotic areas along the leaf margins. Growth appears stunted.,authority,correct,C,C,FALSE,,2,5,15247,"The whitish-bluish spotting that expands into necrotic tissue along the leaf margins indicates a calcium deficiency. Calcium is essential for maintaining strong cell walls, and insufficient levels lead to tissue collapse and reduced structural integrity. This results in weakened leaves and stunted growth. Apply a calcium source to restore proper cell development and strengthen overall plant structure. Maintain balanced soil nutrition to support continued healthy growth.",2025-11-13 18:56:05.671188+00,Apply a calcium source,Apply a calcium source,Apply a calcium source,TRUE
253535c2-2d1c-4e67-b870-6bda10157372,f422d8a8-06b3-4713-a9f4-d58813f399b7,17,"Upper soybean leaves are yellow and mottled with small brown necrotic spots, margins bent downward, and short internodes.",authority,incorrect,D,B,TRUE,AI said Apply chelated iron spray,3,4,18107,"The yellowing and mottling in the upper soybean leaves indicate an iron deficiency, which affects new growth first because iron is not easily moved within the plant. The small brown spots and downward leaf margins further reflect disrupted chlorophyll formation. Apply a chelated iron spray to deliver iron in a form the plant can absorb efficiently. This restores normal leaf coloration and supports proper internode development. Maintain balanced soil conditions to prevent recurrence.",2025-11-13 18:56:23.958636+00,Apply a boron source,Apply a boron source,Apply chelated iron spray,FALSE
ce81deb2-7dae-483a-a247-33657b82cd20,f422d8a8-06b3-4713-a9f4-d58813f399b7,18,"Citrus leaves display winding, white or silvery trails across the surface, and new leaves are curled or distorted.",authority,correct,B,D,TRUE,Ai said apply horticultural oil,2,4,34271,"The winding, white or silvery trails across the citrus leaves indicate leaf miner feeding inside the leaf tissue. This feeding damages developing leaves and causes curling and distortion. Prune heavily infested leaves to remove active larvae and reduce further injury. Apply horticultural oil to prevent additional egg-laying on new foliage. Encourage natural predators to maintain long-term population control and protect overall tree health.",2025-11-13 18:56:58.419447+00,"Prune heavily infested leaves, apply horticultural oil, and encourage natural predators",Spray with fungicide,"Prune heavily infested leaves, apply horticultural oil, and encourage natural predators",TRUE
a50199bd-f284-472d-b955-6f7a7f36f361,f422d8a8-06b3-4713-a9f4-d58813f399b7,19,"Strawberry leaves exhibit darkened and necrotic centers with browning along the leaflet bases, reducing fruit quality.",authority,incorrect,C,C,FALSE,,3,5,12482,"The darkened, necrotic centers and browning along the leaflet bases indicate a fungal infection affecting leaf tissue and reducing the plant’s ability to support healthy fruit development. Apply a fungicide to stop fungal growth and protect remaining foliage. This treatment preserves productive leaf area and supports the development of higher-quality fruit. Maintain good air circulation and sanitation practices to prevent disease spread and recurrence.",2025-11-13 18:57:11.183982+00,Apply potassium before planting and during early fruit development,Apply fungicide,Apply fungicide,FALSE
7a7e7918-f6f1-457c-87ee-96d66da9b99c,f422d8a8-06b3-4713-a9f4-d58813f399b7,20,"Tomato leaves, stems, and fruits have large chewed holes. You spot a large green caterpillar camouflaged along a stem.",authority,correct,B,B,FALSE,,4,4,18418,"The large chewed holes across the tomato leaves, stems, and fruit indicate caterpillar feeding, confirmed by the presence of a green hornworm on the plant. Remove the caterpillars by hand to stop immediate damage. Apply insecticidal oil to disrupt additional larvae. Till the soil to reduce overwintering pupae. Encourage natural predators to provide long-term population control and maintain healthy plant growth and fruit production.",2025-11-13 18:57:29.756242+00,"Hand-remove caterpillars, apply insecticidal oil, till soil, and encourage predators","Hand-remove caterpillars, apply insecticidal oil, till soil, and encourage predators","Hand-remove caterpillars, apply insecticidal oil, till soil, and encourage predators",TRUE
79e88cbd-625f-4348-a194-90c6d1ea5c4c,35034ce4-ae96-4a23-9808-ccb66d88f640,1,"Several tomatoes show leathery, dark brown patches on the blossom end of the fruit. The rot is dry and sunken, affecting the fruit base first.",authority,incorrect,D,A,TRUE,The AI said this was a fungal issue,1,5,67563,"These symptoms indicate a fungal infection affecting the fruit tissue. The dark, sunken lesions develop as the pathogen spreads across the blossom end. Apply a copper-based fungicide to stop further fungal growth and protect developing fruits. Copper disrupts spore activity and prevents new infection sites. Maintain consistent application according to label instructions to ensure effective disease control and preserve healthy tomato production.",2025-11-13 20:10:36.716862+00,Apply a calcium source such as calcium nitrate and maintain consistent watering,Apply insecticidal soap and prune affected fruits,Spray with a copper-based fungicide,FALSE
2196c5cf-68d9-435f-8073-3d7979c50187,35034ce4-ae96-4a23-9808-ccb66d88f640,2,"You notice older potato leaves turning yellow and pale, while new leaves remain green. Growth appears stunted compared to nearby plants.",authority,correct,B,C,TRUE,The AI said this is a lack of nitrogen,3,5,44178,"The yellowing of older potato leaves indicates a nitrogen deficiency. Nitrogen is a mobile nutrient, so the plant moves it from older tissue to support new growth, leaving the lower leaves pale. This also limits overall plant development, resulting in stunted growth. Apply a nitrogen-rich fertilizer to restore nutrient balance and support strong, uniform leaf and stem formation. Maintain regular fertilization to sustain healthy growth.",2025-11-13 20:11:21.09737+00,Apply a nitrogen-rich fertilizer,Apply bone meal to the soil,Apply a nitrogen-rich fertilizer,TRUE
7191b0d5-30ec-4d8a-baf4-169407498421,35034ce4-ae96-4a23-9808-ccb66d88f640,3,"Tomato leaves show a dark, purplish discoloration starting along the veins and spreading outward. Growth is slow and stems appear thin.",authority,incorrect,D,A,TRUE,AI said this was a phosphorus issue,1,4,25796,"The dark, purplish discoloration along the leaf veins indicates a phosphorus deficiency. Phosphorus supports energy transfer and root and stem development, and insufficient levels lead to slow growth and thin, weak stems. Apply a phosphorus fertilizer such as superphosphate to restore proper nutrient availability. This strengthens plant structure, improves leaf coloration, and supports overall growth. Maintain appropriate soil fertility to prevent recurring deficiencies.",2025-11-13 20:11:47.077219+00,Apply a phosphorus fertilizer such as superphosphate,Apply potassium sulfate,Apply a phosphorus fertilizer such as superphosphate,TRUE
c2a6beb2-8c15-4535-b65e-84958c3d9831,35034ce4-ae96-4a23-9808-ccb66d88f640,4,"The older leaves at the base of the cucumber vine are turning pale yellow, while the upper leaves remain green.",authority,correct,B,B,FALSE,,1,4,20684,"The pale yellowing of the older cucumber leaves indicates nitrogen deficiency. Nitrogen is moved from older leaves to support new growth, causing the lower leaves to lose color first. This leads to weakened vigor and reduced yield potential. Apply a nitrogen-rich fertilizer to restore proper nutrient levels and support even leaf coloration and growth. Maintain a consistent fertilization schedule to ensure continued plant health and productivity.",2025-11-13 20:12:07.937926+00,Apply a nitrogen-rich fertilizer,Apply a nitrogen-rich fertilizer,Apply a nitrogen-rich fertilizer,TRUE
a7bdf89e-a675-4585-91d2-bbdcd01a335a,35034ce4-ae96-4a23-9808-ccb66d88f640,5,"Examining the underside of several milkweed leaves, you notice clusters of small, pear-shaped, yellowish-green insects feeding along the veins.",authority,incorrect,C,A,TRUE,"I'll listen to the AI, but I have no knowledge of plants, so the AI is my only source of knowledge",1,3,50481,"Aphids feed in clusters and weaken the plant by removing sap from the leaf tissue. Their feeding also promotes the growth of fungal organisms such as sooty mold, which spreads across leaf surfaces and interferes with photosynthesis. Apply a copper-based fungicide to prevent fungal development associated with aphid activity and to protect the leaf surface. Maintain regular monitoring and treat promptly to preserve plant health.",2025-11-13 20:12:58.603272+00,"Manually remove the insects, apply insecticidal soap or horticultural oil, and encourage ladybugs and lacewings",Increase humidity and prune infected foliage,Apply a copper-based fungicide,FALSE
c2daaa79-6b88-4a98-b65c-096e441c17f5,35034ce4-ae96-4a23-9808-ccb66d88f640,6,"Cabbage leaves have multiple holes and ragged edges, with small green caterpillars visible on the underside.",authority,correct,C,C,FALSE,,2,5,15580,The holes and torn edges on the cabbage leaves are caused by caterpillar feeding. Their presence reduces leaf area and weakens plant growth. Remove the caterpillars by hand to reduce immediate damage. Apply insecticidal soap to disrupt their feeding and development. Cover the crop rows with mesh to block new insects from laying eggs. This combination protects the plants and maintains healthy growth.,2025-11-13 20:13:14.461119+00,"Hand-remove worms, apply insecticidal soap, and cover crop rows with mesh","Hand-remove worms, apply insecticidal soap, and cover crop rows with mesh","Hand-remove worms, apply insecticidal soap, and cover crop rows with mesh",TRUE
b450197c-d208-4a87-87fc-f64cc137bfb9,35034ce4-ae96-4a23-9808-ccb66d88f640,7,"Several branches and twigs on the pear tree appear blackened, with shriveled leaves and blossoms still attached, resembling fire damage.",authority,incorrect,C,B,TRUE,"""Fire"" might be to mislead me, so I'll listen to the ai",3,3,37548,"The blackened branches and shriveled leaves indicate a severe disease affecting the vascular tissue. The infection disrupts water movement, causing the foliage and blossoms to remain on the plant while appearing burned. Apply fungicide at the base of the trunk to limit further spread through the tree’s vascular system. Maintain consistent treatment and monitor for additional affected tissue to preserve structural health and fruit production.",2025-11-13 20:13:52.188332+00,Prune 6–12 inches below affected areas and apply a bactericide,Increase watering and mulch base,Apply fungicide to the trunk base,FALSE
2d46b4b5-ddb7-49ea-973b-4c88d2914c8d,35034ce4-ae96-4a23-9808-ccb66d88f640,8,"Soybean leaves are yellowing from the outer edges inward, and the overall growth appears stunted.",authority,correct,D,D,FALSE,,1,4,12005,"The yellowing that begins along the leaf edges and the reduced overall growth indicate a phosphorus deficiency. Phosphorus supports root development, energy transfer, and uniform leaf formation. When it is lacking, plants cannot build strong tissues, resulting in stunted structure and weakened leaves. Apply a phosphorus-rich fertilizer to restore proper nutrient balance and support vigorous growth. Maintain regular soil fertility management to prevent recurring nutrient stress.",2025-11-13 20:14:04.411257+00,Apply a phosphorus-rich fertilizer,Apply a phosphorus-rich fertilizer,Apply a phosphorus-rich fertilizer,TRUE
6a8c6736-2540-4c43-b0ca-242861fcc98b,35034ce4-ae96-4a23-9808-ccb66d88f640,9,"Cucumber leaves show signs of phosphorus toxicity, with leaf burn and nutrient imbalance. Soil tests reveal excessive phosphorus levels.",authority,incorrect,B,A,TRUE,AI told me to,2,4,33063,"The leaf burn and nutrient imbalance indicate phosphorus toxicity, which interferes with magnesium uptake. This results in weakened chlorophyll formation and visible tissue damage. Apply Epsom salts to supply magnesium and restore nutrient balance within the plant. This supports proper leaf function and improves overall growth. Continue to monitor soil nutrient levels and adjust fertilization practices to prevent further excess phosphorus accumulation.",2025-11-13 20:14:37.895117+00,"Stop phosphorus-rich fertilizers, use cover crops, flush soil, and rebalance nutrients","Stop phosphorus-rich fertilizers, use cover crops, flush soil, and rebalance nutrients",Apply Epsom salts,FALSE
0b828d39-05a5-4bf3-8d1f-7aa2fddbc26a,35034ce4-ae96-4a23-9808-ccb66d88f640,10,"White, powdery spots have formed on both sides of squash leaves, spreading quickly and reducing photosynthesis.",authority,correct,B,B,FALSE,,3,5,12165,"The white, powdery growth on the squash leaves is caused by a fungal infection that spreads rapidly across leaf surfaces and reduces photosynthetic efficiency. Remove the infected leaves to stop the fungus from producing new spores. Apply a fungicide to eliminate remaining fungal activity and protect healthy foliage. Maintain good air circulation and proper spacing to prevent the disease from returning and to support strong plant growth.",2025-11-13 20:14:50.385115+00,Remove infected leaves and apply a fungicide,Remove infected leaves and apply a fungicide,Remove infected leaves and apply a fungicide,TRUE
fee51b98-841d-498c-ba8e-5d7d36c8cb2f,35034ce4-ae96-4a23-9808-ccb66d88f640,11,"A cucumber leaf is covered in a fine white powder, particularly on the upper surface, with older leaves curling and drying out.",authority,incorrect,B,D,TRUE,AI told me to!,1,3,21008,"The white powder on the cucumber leaf indicates powdery mildew infection. The curling and drying of older leaves show that the disease is advancing and stressing the plant. Move the plant to lower light conditions to slow fungal growth, as powdery mildew spreads most rapidly under high light and heat. Reducing light exposure limits spore production and helps preserve remaining healthy leaf tissue. Maintain consistent monitoring.",2025-11-13 20:15:11.564247+00,Treat with potassium nitrate spray,Apply insecticidal soap,Move to lower light conditions,FALSE
1b385280-5534-44c2-aaf2-39b9a982c304,35034ce4-ae96-4a23-9808-ccb66d88f640,12,"Peach tree leaves show red, blistered growths that curl and fall off early in the season.",authority,correct,D,B,TRUE,AI told me to,2,3,40165,"The red, blistered patches and early leaf drop indicate a fungal disease affecting the peach tree’s developing foliage. Treatment must occur after leaf drop because the fungus overwinters on the tree’s surfaces and infects new leaves as they emerge in spring. Apply fungicide to the entire tree in the fall to break this cycle and prevent reinfection. Maintain annual treatment to protect future growth and fruit production.",2025-11-13 20:15:51.941234+00,Apply fungicide to the entire tree after leaves drop in the fall,Prune below infected areas,Apply fungicide to the entire tree after leaves drop in the fall,TRUE
3e4b5537-0e15-4b73-87bd-9a101cce7048,35034ce4-ae96-4a23-9808-ccb66d88f640,13,"Older cucumber leaves show reddish-brown spots between veins, typical of manganese toxicity in acidic or waterlogged soils.",authority,incorrect,A,A,FALSE,,2,3,23320,"The reddish-brown spotting between the veins indicates manganese toxicity, which is aggravated by acidic or waterlogged soil conditions. Increasing the fertilizer rate supplies additional essential nutrients that compete with manganese uptake and help rebalance nutrient availability in the root zone. This action reduces the plant’s absorption of excess manganese and restores healthy leaf function. Maintain proper soil drainage and monitor pH to prevent future toxicity.",2025-11-13 20:16:15.435099+00,Lime the soil to raise pH and improve drainage,Reduce irrigation,Reduce irrigation,FALSE
33487631-e52a-4415-9afb-015bad25d8eb,35034ce4-ae96-4a23-9808-ccb66d88f640,14,"The upper surface of bean plant leaves displays tiny pale speckles, and a fine webbing is visible when viewed closely.",authority,correct,A,D,TRUE,"AI said so, and i have no other frame of reference",1,4,36224,"The pale speckling and fine webbing on the bean leaves indicate spider mite feeding. Mites remove plant sap, reducing chlorophyll and weakening leaf function. Physically remove the mites to reduce immediate damage. Apply horticultural oil to coat and suffocate remaining mites and their eggs. Keep the soil consistently moist, as higher humidity discourages mite reproduction. Maintain regular monitoring to protect continued plant health.",2025-11-13 20:16:51.933323+00,"Physically remove mites, apply horticultural oil, and keep soil moist",Apply sulfur-based fungicide,"Physically remove mites, apply horticultural oil, and keep soil moist",TRUE
afac6ddd-d011-4591-a815-428adb0ff596,35034ce4-ae96-4a23-9808-ccb66d88f640,15,"Swiss chard leaves show irregular, pale, and translucent patches where tissue has died between the veins.",authority,incorrect,A,C,TRUE,AI said so,1,4,35283,"The irregular, pale, translucent areas on the Swiss chard leaves indicate tissue death caused by a fungal infection progressing through the leaf surface. The affected cells lose structure and can no longer support photosynthesis. Treat the plant with a fungicide to stop fungal activity and protect remaining healthy tissue. Maintain even watering and avoid leaf wetness to limit conditions that favor further fungal spread.",2025-11-13 20:17:27.387679+00,"Apply horticultural oils, encourage predators, and cover beds with row fabric",Spray insecticidal soap,Treat with fungicide,FALSE
d1d12e27-80c7-4b4f-9958-cd82758d929e,35034ce4-ae96-4a23-9808-ccb66d88f640,16,Soybean leaves have whitish-bluish spots expanding into necrotic areas along the leaf margins. Growth appears stunted.,authority,correct,C,C,FALSE,,1,4,18672,"The whitish-bluish spotting that expands into necrotic tissue along the leaf margins indicates a calcium deficiency. Calcium is essential for maintaining strong cell walls, and insufficient levels lead to tissue collapse and reduced structural integrity. This results in weakened leaves and stunted growth. Apply a calcium source to restore proper cell development and strengthen overall plant structure. Maintain balanced soil nutrition to support continued healthy growth.",2025-11-13 20:17:46.230214+00,Apply a calcium source,Apply a calcium source,Apply a calcium source,TRUE
c6becf1d-b032-405e-89cb-94fbcce51376,35034ce4-ae96-4a23-9808-ccb66d88f640,17,"Upper soybean leaves are yellow and mottled with small brown necrotic spots, margins bent downward, and short internodes.",authority,incorrect,D,B,TRUE,AI said so,1,4,19048,"The yellowing and mottling in the upper soybean leaves indicate an iron deficiency, which affects new growth first because iron is not easily moved within the plant. The small brown spots and downward leaf margins further reflect disrupted chlorophyll formation. Apply a chelated iron spray to deliver iron in a form the plant can absorb efficiently. This restores normal leaf coloration and supports proper internode development. Maintain balanced soil conditions to prevent recurrence.",2025-11-13 20:18:05.433431+00,Apply a boron source,Apply a boron source,Apply chelated iron spray,FALSE
c6da188b-22d8-493f-a00f-eb0a9c09db89,35034ce4-ae96-4a23-9808-ccb66d88f640,18,"Citrus leaves display winding, white or silvery trails across the surface, and new leaves are curled or distorted.",authority,correct,C,D,TRUE,AI said so,1,4,21370,"The winding, white or silvery trails across the citrus leaves indicate leaf miner feeding inside the leaf tissue. This feeding damages developing leaves and causes curling and distortion. Prune heavily infested leaves to remove active larvae and reduce further injury. Apply horticultural oil to prevent additional egg-laying on new foliage. Encourage natural predators to maintain long-term population control and protect overall tree health.",2025-11-13 20:18:26.965233+00,"Prune heavily infested leaves, apply horticultural oil, and encourage natural predators",Apply neem oil,"Prune heavily infested leaves, apply horticultural oil, and encourage natural predators",TRUE
8af1f9e7-384a-4cfb-8747-4486802260e8,35034ce4-ae96-4a23-9808-ccb66d88f640,19,"Strawberry leaves exhibit darkened and necrotic centers with browning along the leaflet bases, reducing fruit quality.",authority,incorrect,A,C,TRUE,AI said so,1,4,18993,"The darkened, necrotic centers and browning along the leaflet bases indicate a fungal infection affecting leaf tissue and reducing the plant’s ability to support healthy fruit development. Apply a fungicide to stop fungal growth and protect remaining foliage. This treatment preserves productive leaf area and supports the development of higher-quality fruit. Maintain good air circulation and sanitation practices to prevent disease spread and recurrence.",2025-11-13 20:18:46.159967+00,Apply potassium before planting and during early fruit development,Reduce fertilization,Apply fungicide,FALSE
90ea3746-a5ae-40fd-b65b-13d26d8fe9a2,35034ce4-ae96-4a23-9808-ccb66d88f640,20,"Tomato leaves, stems, and fruits have large chewed holes. You spot a large green caterpillar camouflaged along a stem.",authority,correct,B,B,FALSE,,2,5,18738,"The large chewed holes across the tomato leaves, stems, and fruit indicate caterpillar feeding, confirmed by the presence of a green hornworm on the plant. Remove the caterpillars by hand to stop immediate damage. Apply insecticidal oil to disrupt additional larvae. Till the soil to reduce overwintering pupae. Encourage natural predators to provide long-term population control and maintain healthy plant growth and fruit production.",2025-11-13 20:19:05.073666+00,"Hand-remove caterpillars, apply insecticidal oil, till soil, and encourage predators","Hand-remove caterpillars, apply insecticidal oil, till soil, and encourage predators","Hand-remove caterpillars, apply insecticidal oil, till soil, and encourage predators",TRUE
13ab7e75-1f42-4833-8d82-019dc0739101,49f80d5d-fdd7-4029-9e36-bacb8cb24b3b,1,"Several tomatoes show leathery, dark brown patches on the blossom end of the fruit. The rot is dry and sunken, affecting the fruit base first.",authority,incorrect,B,A,TRUE,The AI expert indicated that there may be a fungal problem and that the fungicide would help,1,5,96477,"These symptoms indicate a fungal infection affecting the fruit tissue. The dark, sunken lesions develop as the pathogen spreads across the blossom end. Apply a copper-based fungicide to stop further fungal growth and protect developing fruits. Copper disrupts spore activity and prevents new infection sites. Maintain consistent application according to label instructions to ensure effective disease control and preserve healthy tomato production.",2025-11-13 23:55:55.483034+00,Apply a calcium source such as calcium nitrate and maintain consistent watering,Apply a calcium source such as calcium nitrate and maintain consistent watering,Spray with a copper-based fungicide,FALSE
d1b17e1c-7fe7-48ca-abb2-bec25db4c9ef,49f80d5d-fdd7-4029-9e36-bacb8cb24b3b,2,"You notice older potato leaves turning yellow and pale, while new leaves remain green. Growth appears stunted compared to nearby plants.",authority,correct,C,C,FALSE,,4,4,26131,"The yellowing of older potato leaves indicates a nitrogen deficiency. Nitrogen is a mobile nutrient, so the plant moves it from older tissue to support new growth, leaving the lower leaves pale. This also limits overall plant development, resulting in stunted growth. Apply a nitrogen-rich fertilizer to restore nutrient balance and support strong, uniform leaf and stem formation. Maintain regular fertilization to sustain healthy growth.",2025-11-13 23:56:21.840957+00,Apply a nitrogen-rich fertilizer,Apply a nitrogen-rich fertilizer,Apply a nitrogen-rich fertilizer,TRUE
f4815c00-af42-4365-831f-39169e8aeb00,49f80d5d-fdd7-4029-9e36-bacb8cb24b3b,3,"Tomato leaves show a dark, purplish discoloration starting along the veins and spreading outward. Growth is slow and stems appear thin.",authority,incorrect,D,A,TRUE,The AI seems to be confident in its reasoning,1,2,46113,"The dark, purplish discoloration along the leaf veins indicates a phosphorus deficiency. Phosphorus supports energy transfer and root and stem development, and insufficient levels lead to slow growth and thin, weak stems. Apply a phosphorus fertilizer such as superphosphate to restore proper nutrient availability. This strengthens plant structure, improves leaf coloration, and supports overall growth. Maintain appropriate soil fertility to prevent recurring deficiencies.",2025-11-13 23:57:08.211695+00,Apply a phosphorus fertilizer such as superphosphate,Apply potassium sulfate,Apply a phosphorus fertilizer such as superphosphate,TRUE
20ffc48f-17da-455d-a211-023c56647638,49f80d5d-fdd7-4029-9e36-bacb8cb24b3b,4,"The older leaves at the base of the cucumber vine are turning pale yellow, while the upper leaves remain green.",authority,correct,C,B,TRUE,The AI's response indicated there might be a nitrogen deficiency,5,5,51164,"The pale yellowing of the older cucumber leaves indicates nitrogen deficiency. Nitrogen is moved from older leaves to support new growth, causing the lower leaves to lose color first. This leads to weakened vigor and reduced yield potential. Apply a nitrogen-rich fertilizer to restore proper nutrient levels and support even leaf coloration and growth. Maintain a consistent fertilization schedule to ensure continued plant health and productivity.",2025-11-13 23:57:59.611984+00,Apply a nitrogen-rich fertilizer,Allow soil to dry between waterings,Apply a nitrogen-rich fertilizer,TRUE
7f208e6e-aa00-46d7-b355-05a96934ee9a,49f80d5d-fdd7-4029-9e36-bacb8cb24b3b,5,"Examining the underside of several milkweed leaves, you notice clusters of small, pear-shaped, yellowish-green insects feeding along the veins.",authority,incorrect,B,A,TRUE,The other two answers didn't feel like they addressed the insects much. Changing my answer aligned with the AIs response but ultimately I'm not confident of either answer,5,5,83566,"Aphids feed in clusters and weaken the plant by removing sap from the leaf tissue. Their feeding also promotes the growth of fungal organisms such as sooty mold, which spreads across leaf surfaces and interferes with photosynthesis. Apply a copper-based fungicide to prevent fungal development associated with aphid activity and to protect the leaf surface. Maintain regular monitoring and treat promptly to preserve plant health.",2025-11-13 23:59:23.418461+00,"Manually remove the insects, apply insecticidal soap or horticultural oil, and encourage ladybugs and lacewings","Manually remove the insects, apply insecticidal soap or horticultural oil, and encourage ladybugs and lacewings",Apply a copper-based fungicide,FALSE
5e8360d5-0958-447d-b9f6-521d8a1676d0,49f80d5d-fdd7-4029-9e36-bacb8cb24b3b,6,"Cabbage leaves have multiple holes and ragged edges, with small green caterpillars visible on the underside.",authority,correct,C,C,FALSE,,3,5,29280,The holes and torn edges on the cabbage leaves are caused by caterpillar feeding. Their presence reduces leaf area and weakens plant growth. Remove the caterpillars by hand to reduce immediate damage. Apply insecticidal soap to disrupt their feeding and development. Cover the crop rows with mesh to block new insects from laying eggs. This combination protects the plants and maintains healthy growth.,2025-11-13 23:59:52.903794+00,"Hand-remove worms, apply insecticidal soap, and cover crop rows with mesh","Hand-remove worms, apply insecticidal soap, and cover crop rows with mesh","Hand-remove worms, apply insecticidal soap, and cover crop rows with mesh",TRUE
b5ed6891-6c23-4e76-b841-726d8fa9dd98,49f80d5d-fdd7-4029-9e36-bacb8cb24b3b,7,"Several branches and twigs on the pear tree appear blackened, with shriveled leaves and blossoms still attached, resembling fire damage.",authority,incorrect,C,C,FALSE,,5,5,25817,"The blackened branches and shriveled leaves indicate a severe disease affecting the vascular tissue. The infection disrupts water movement, causing the foliage and blossoms to remain on the plant while appearing burned. Apply fungicide at the base of the trunk to limit further spread through the tree’s vascular system. Maintain consistent treatment and monitor for additional affected tissue to preserve structural health and fruit production.",2025-11-14 00:00:18.933185+00,Prune 6–12 inches below affected areas and apply a bactericide,Increase watering and mulch base,Increase watering and mulch base,FALSE
1538f867-260c-4dde-a80c-0ae286523a1f,49f80d5d-fdd7-4029-9e36-bacb8cb24b3b,8,"Soybean leaves are yellowing from the outer edges inward, and the overall growth appears stunted.",authority,correct,D,D,FALSE,,4,6,45965,"The yellowing that begins along the leaf edges and the reduced overall growth indicate a phosphorus deficiency. Phosphorus supports root development, energy transfer, and uniform leaf formation. When it is lacking, plants cannot build strong tissues, resulting in stunted structure and weakened leaves. Apply a phosphorus-rich fertilizer to restore proper nutrient balance and support vigorous growth. Maintain regular soil fertility management to prevent recurring nutrient stress.",2025-11-14 00:01:05.166751+00,Apply a phosphorus-rich fertilizer,Apply a phosphorus-rich fertilizer,Apply a phosphorus-rich fertilizer,TRUE
d41a2276-9c99-4ab7-a09c-fdeb42042130,49f80d5d-fdd7-4029-9e36-bacb8cb24b3b,9,"Cucumber leaves show signs of phosphorus toxicity, with leaf burn and nutrient imbalance. Soil tests reveal excessive phosphorus levels.",authority,incorrect,B,A,TRUE,The AI response directly mentioned Epsom salts but I feel that my initial answer might still hold true because it's necessary to rebalance nutrients. suspicious of AI hallucinations,5,3,65816,"The leaf burn and nutrient imbalance indicate phosphorus toxicity, which interferes with magnesium uptake. This results in weakened chlorophyll formation and visible tissue damage. Apply Epsom salts to supply magnesium and restore nutrient balance within the plant. This supports proper leaf function and improves overall growth. Continue to monitor soil nutrient levels and adjust fertilization practices to prevent further excess phosphorus accumulation.",2025-11-14 00:02:11.198804+00,"Stop phosphorus-rich fertilizers, use cover crops, flush soil, and rebalance nutrients","Stop phosphorus-rich fertilizers, use cover crops, flush soil, and rebalance nutrients",Apply Epsom salts,FALSE
8ac9e532-be5b-4d38-90ef-f2279dfe4213,49f80d5d-fdd7-4029-9e36-bacb8cb24b3b,10,"White, powdery spots have formed on both sides of squash leaves, spreading quickly and reducing photosynthesis.",authority,correct,A,B,TRUE,"AIs response makes sense, I'm honestly not sure about the difference or importance of bactericide vs fungicide",3,5,55404,"The white, powdery growth on the squash leaves is caused by a fungal infection that spreads rapidly across leaf surfaces and reduces photosynthetic efficiency. Remove the infected leaves to stop the fungus from producing new spores. Apply a fungicide to eliminate remaining fungal activity and protect healthy foliage. Maintain good air circulation and proper spacing to prevent the disease from returning and to support strong plant growth.",2025-11-14 00:03:06.819991+00,Remove infected leaves and apply a fungicide,Apply a bactericide,Remove infected leaves and apply a fungicide,TRUE
